Folder: tungsten/data/electrodes

Note: data/electrodes/liquid_calibration_plot.txt
6	-28
5	-11.39
4.5	-19.06
4	-13.07
3.5	-9.43
3	0.53
2.5	14.14
2	29.1
1.5	45.98
1	57.58
0.6	71.52
0	86.8

Note: data/electrodes/solid_calibration_plot.txt
6	-125.02
5	-146.37
4.5	-141.14
4	-129.85
3.5	-123.03
3	-107.71
2.5	-91.59
2	-75.52
1.5	-58.6
1	-41.69
0.5	-23.13
0	-6.62

File: liquid calibration measurement.txt
WE(1).Potential (V)	Corrected time (s)
-0.0255737	0
-0.026123	3
-0.0265808	6
-0.0270386	9
-0.0270386	12
-0.0276184	15
-0.0279541	18
-0.0275574	21
-0.0281067	24
-0.0283203	27
-0.0284119	30
-0.0282593	33
-0.0279541	36
-0.0283508	39
-0.0283813	42
-0.0280151	45
-0.0281067	48
-0.0280457	51
-0.0281372	54
-0.0285034	57
-1.88934	60
-3.76129	63
-3.7735	66
-0.00961304	69
-0.00939941	72
-0.0102234	75
-0.010498	78
-0.0109863	81
-0.0111084	84
-0.011261	87
-0.0112	90
-0.0111694	93
-0.0113831	96
-0.0112915	99
-0.011261	102
-0.011322	105
-0.0112305	108
-0.0112915	111
-0.0112305	114
-0.0110779	117
-0.0112915	120
-0.0111084	123
0.00823975	126
-2.8125	129
-3.75732	132
-3.75153	135
-0.0158691	138
-0.0164795	141
-0.0166626	144
-0.0170288	147
-0.017395	150
-0.0169983	153
-0.0171204	156
-0.0166626	159
-0.0171509	162
-0.0171509	165
-0.0171814	168
-0.0180054	171
-0.0183411	174
-0.018219	177
-0.0181274	180
-0.0188599	183
-0.019165	186
-0.0191956	189
-0.0189819	192
-0.0188293	195
-0.0190125	198
-2.65686	201
-3.77136	204
-3.75854	207
0.000488281	210
-0.0116882	213
-0.0125732	216
-0.01297	219
-0.013092	222
-0.0129089	225
-0.0129395	228
-0.0128174	231
-0.0128174	234
-0.0131226	237
-0.0136108	240
-0.0138245	243
-0.0138855	246
-0.0137329	249
-0.0130615	252
-0.01297	255
-0.0130005	258
-0.0131226	261
-0.0131836	264
-0.0133362	267
-0.0134583	270
-0.0135803	273
-0.189117	276
-2.89368	279
-3.76038	282
-0.00262451	285
-0.00973511	288
-0.00912476	291
-0.00891113	294
-0.00927734	297
-0.00991821	300
-0.009765625	303
-0.0090332	306
-0.00891113	309
-0.00933838	312
-0.0100098	315
-0.00982666	318
-0.00906372	321
-0.00894165	324
-0.00933838	327
-0.00991821	330
-0.009765625	333
-0.00946045	336
-0.00878906	339
-0.00869751	342
-0.00909424	345
-0.00836182	348
-2.08496	351
-3.75519	354
-3.77502	357
-0.00106812	360
-3.05176e-05	363
0.00106812	366
0.000610352	369
-9.15527e-05	372
0.000854492	375
0.000640869	378
-0.000213623	381
0.00088501	384
0.000793457	387
-0.000305176	390
0.000823975	393
0.000823975	396
-0.000274658	399
0.00109863	402
0.000335693	405
0.000183105	408
0.000915527	411
-0.000305176	414
0.0012207	417
-0.000457764	420
0.00112915	423
-0.000366211	426
-3.21075	429
-3.7619	432
-3.76099	435
0.0112	438
0.0150757	441
0.0137939	444
0.0154419	447
0.0144653	450
0.014801	453
0.0149841	456
0.0136414	459
0.0154114	462
0.0144958	465
0.0135498	468
0.0152283	471
0.0141296	474
0.0138245	477
0.0152588	480
0.0140686	483
0.0135498	486
0.0151978	489
0.0137329	492
0.0144348	495
0.0145569	498
0.0134583	501
0.00491333	504
-3.17688	507
-3.75732	510
0.0356445	513
0.0329285	516
0.0317688	519
0.0319519	522
0.0310669	525
0.0315857	528
0.0301819	531
0.0312805	534
0.0297546	537
0.0301819	540
0.0304871	543
0.0292053	546
0.0303345	549
0.0293884	552
0.0291443	555
0.0300598	558
0.0296631	561
0.028717	564
0.02948	567
0.0296021	570
0.0284729	573
0.0291138	576
-1.57135	579
-3.75183	582
-3.75732	585
0.0652771	588
0.0535889	591
0.0509033	594
0.0499878	597
0.0499878	600
0.0500793	603
0.0497742	606
0.048645	609
0.0478821	612
0.0481262	615
0.0484314	618
0.0484314	621
0.0476685	624
0.0469666	627
0.0467834	630
0.0472412	633
0.0475464	636
0.0473328	639
0.0464478	642
0.0459595	645
0.0459595	648
0.0461426	651
0.0462341	654
0.00137329	657
-2.65991	660
-3.76129	663
-3.75671	666
0.0645447	669
0.0630188	672
0.0620728	675
0.0614014	678
0.0608521	681
0.0604858	684
0.0602417	687
0.059967	690
0.0597839	693
0.0595703	696
0.0592957	699
0.0591125	702
0.0590515	705
0.0588074	708
0.0584717	711
0.0581665	714
0.0578613	717
0.0574036	720
0.0571289	723
0.0569458	726
0.0570068	729
-3.75305	732
-3.76221	735
-3.7561	738
0.0773621	741
0.0759888	744
0.0750732	747
0.0745544	750
0.0744324	753
0.0746155	756
0.0742493	759
0.073822	762
0.0733337	765
0.0729065	768
0.0727234	771
0.0728149	774
0.0730286	777
0.0727234	780
0.0723877	783
0.0718994	786
0.0715942	789
0.0717468	792
0.0719299	795
0.0715637	798
0.071106	801
0.0710449	804
-0.873413	807
-3.38013	810
-3.76587	813
0.0923462	816
0.0929871	819
0.0913391	822
0.091217	825
0.0905151	828
0.0899048	831
0.0900574	834
0.089447	837
0.0893555	840
0.0892029	843
0.0886841	846
0.0888977	849
0.0884094	852
0.0883789	855
0.0882263	858
0.0879211	861
0.0879211	864
0.0875244	867
0.0876465	870
0.0871887	873
0.0873413	876
0.0868835	879
0.0870361	882
0.0866699	885
0.0868225	888
0.0866699	889

File: solid calibration measurement.txt
WE(1).Potential (V)	Corrected time (s)
0.124969	0
0.124176	6
0.125	12
0.124481	18
0.125061	24
0.12442	30
0.125427	36
0.124634	42
0.125549	48
0.125061	54
0.124878	60
0.125519	66
0.125275	72
0.124725	78
0.125153	84
0.125519	90
0.125336	96
0.125305	102
0.125214	108
0.125092	114
2.65106	120
3.75244	126
0.153931	132
0.151825	138
0.15033	144
0.149139	150
0.148468	156
0.14798	162
0.147461	168
0.14682	174
0.146423	180
0.146423	186
0.146454	192
0.146454	198
0.146484	204
0.063385	210
0.0588989	216
0.0561523	222
0.0540466	228
0.05896	234
0.0558167	240
0.152252	246
0.149445	252
0.147919	258
0.147278	264
0.14682	270
0.146484	276
0.902405	282
0.124268	288
0.511475	294
0.147095	300
0.146301	306
0.145508	312
0.144775	318
0.144684	324
0.144501	330
0.14386	336
0.143311	342
0.143311	348
0.143158	354
0.142975	360
0.142548	366
0.142059	372
0.142303	378
0.142059	384
0.141479	390
0.141602	396
0.141296	402
0.141052	408
0.141144	414
0.138824	420
3.7616	426
0.189423	432
0.134277	438
0.133636	444
0.133087	450
0.132751	456
0.132477	462
0.132233	468
0.132111	474
0.131989	480
0.132019	486
0.131958	492
0.131622	498
0.13147	504
0.131409	510
0.131409	516
0.131195	522
0.131042	528
0.130951	534
0.130829	540
0.130402	546
0.129822	552
0.130005	558
0.130371	564
2.54578	570
0.107452	576
0.126312	582
0.126526	588
0.125183	594
0.125031	600
0.125244	606
0.125244	612
0.124786	618
0.124329	624
0.123993	630
0.123779	636
0.123413	642
0.123688	648
0.12381	654
0.123657	660
0.122986	666
0.12265	672
0.123199	678
0.122955	684
0.0458984	690
0.0420532	696
0.124664	702
0.126343	708
0.124512	714
0.124664	720
0.0675964	726
3.63007	732
0.108521	738
0.11264	744
0.111328	750
0.111237	756
0.110443	762
0.109955	768
0.110291	774
0.109741	780
0.109192	786
0.109283	792
0.109344	798
0.109375	804
0.109039	810
0.108734	816
0.108246	822
0.108154	828
0.108185	834
0.108246	840
0.108185	846
0.108032	852
0.10791	858
0.10788	864
0.119049	870
3.75854	876
0.0950928	882
0.0939331	888
0.0934753	894
0.0933228	900
0.0930786	906
0.092926	912
0.0927734	918
0.0925293	924
0.0926514	930
0.0926514	936
0.0923767	942
0.0921631	948
0.0921631	954
0.0920715	960
0.0919189	966
0.0921631	972
0.0921326	978
0.0917053	984
0.0915222	990
0.0917969	996
0.0917664	1002
0.0914917	1008
0.0912476	1014
1.76727	1020
2.39319	1026
0.0700989	1032
0.071106	1038
0.0718384	1044
0.0724792	1050
0.0731201	1056
0.0736084	1062
0.0739441	1068
0.0740662	1074
0.0742493	1080
0.0744019	1086
0.0745544	1092
0.0747375	1098
0.0748901	1104
0.0750732	1110
0.0754089	1116
0.0756226	1122
0.0758362	1128
0.0760498	1134
0.0760498	1140
0.0757446	1146
0.0754395	1152
0.075531	1158
3.79059	1164
3.7561	1170
0.0615234	1176
0.0611877	1182
0.0603027	1188
0.059845	1194
0.0594788	1200
0.0592041	1206
0.0588989	1212
0.0587769	1218
0.0587769	1224
0.0586243	1230
0.0586548	1236
0.0588684	1242
0.0591736	1248
0.0592041	1254
0.0591736	1260
0.059082	1266
0.0589905	1272
0.059021	1278
0.05896	1284
0.05896	1290
0.0589294	1296
0.0587769	1302
0.05859375	1308
0.0603333	1314
3.61115	1320
0.0398865	1326
0.0393982	1332
0.039917	1338
0.0401611	1344
0.0400085	1350
0.0404968	1356
0.040741	1362
0.0409851	1368
0.0411682	1374
0.0412903	1380
0.0413513	1386
0.0415039	1392
0.0415955	1398
0.0416565	1404
0.0418091	1410
0.0418396	1416
0.0415039	1422
0.0415955	1428
0.0419922	1434
0.0420837	1440
0.041748	1446
0.0418396	1452
0.0423279	1458
0.0419312	1464
0.0357666	1470
3.72284	1476
0.0180359	1482
0.0194092	1488
0.0201721	1494
0.0206299	1500
0.0205078	1506
0.0207214	1512
0.0209045	1518
0.0214844	1524
0.0218811	1530
0.0219421	1536
0.0215759	1542
0.0220337	1548
0.022644	1554
0.0227661	1560
0.0221558	1566
0.0223389	1572
0.0229187	1578
0.0233765	1584
0.0232544	1590
0.0228271	1596
0.0227051	1602
0.0230713	1608
0.0236206	1614
0.0238647	1620
0.0230103	1626
2.6944	1632
-0.00540161	1638
0.00421143	1644
0.00442505	1650
0.00469971	1656
0.00482178	1662
0.00506592	1668
0.00518799	1674
0.00540161	1680
0.00515747	1686
0.00506592	1692
0.00500488	1698
0.00521851	1704
0.00592041	1710
0.0062561	1716
0.00616455	1722
0.00588989	1728
0.00579834	1734
0.00646973	1740
0.00680542	1746
0.00668335	1752
0.00634766	1758
0.00698853	1764
0.0065918	1770
0.00698853	1776
0.00701904	1782
0.00723267	1786